{
	"resourceType": "Bundle",
	"id": "Bundle-WGSTestOrderForm-Example",
	"type": "transaction",
	"entry": [
		{
			"fullUrl": "http://example.org/fhir/PractitionerRole/PractitionerRole-HazelSmithRenal-Example",
			"resource": {
				"resourceType": "PractitionerRole",
				"id": "PractitionerRole-HazelSmithRenal-Example",
				"practitioner": {
					"reference": "Practitioner/Practitioner-HazelSmith-Example",
					"identifier": {
						"system": "https://fhir.nhs.uk/Id/sds-user-id",
						"value": "9999999998"
					},
					"display": "Dr. Hazel Smith"
				},
				"organization": {
					"reference": "Organization/Organization-KingstonHospital-Example",
					"identifier": {
						"system": "https://fhir.nhs.uk/Id/ods-organization-code",
						"value": "RAX01"
					},
					"display": "Kingston Hospital NHS Foundation Trust"
				},
				"specialty": [
					{
						"coding": [
							{
								"system": "https://fhir.hl7.org.uk/CodeSystem/UKCore-PracticeSettingCode",
								"code": "361",
								"display": "Renal Medicine"
							}
						]
					}
				],
				"telecom": [
					{
						"system": "phone",
						"value": "02085467711"
					},
					{
						"system": "email",
						"value": "Hazel.smith12@nhs.net"
					},
					{
						"system": "email",
						"value": "renalseckingston@nhs.net",
						"use": "work"
					}
				]
			},
      "request": {
        "method": "POST",
        "url": "PractitionerRole"
      }
		},
		{
			"fullUrl": "http://example.org/fhir/Patient/Patient-LindsaySorrell-Example",
			"resource": {
				"resourceType": "Patient",
				"id": "Patient-LindsaySorrell-Example",
				"extension": [
					{
						"url": "https://fhir.hl7.org.uk/StructureDefinition/Extension-UKCore-BirthSex",
						"valueCode": "M"
					},
					{
						"url": "https://fhir.hl7.org.uk/StructureDefinition/Extension-UKCore-EthnicCategory",
						"valueCodeableConcept": {
							"coding": [
								{
									"system": "https://fhir.hl7.org.uk/CodeSystem/UKCore-EthnicCategoryEngland",
									"code": "A",
									"display": "White - British"
								}
							]
						}
					}
				],
				"identifier": [
					{
						"system": "https://fhir.nhs.uk/Id/nhs-number",
						"value": "9449307946"
					},
					{
						"system": "https://fhir.add.nhs.uk/Id/MRN",
						"value": "RWT14789"
					}
				],
				"name": [
					{
						"given": [
							"Lindsay"
						],
						"family": "Sorrell"
					}
				],
				"gender": "male",
				"birthDate": "2011-04-12",
				"deceasedBoolean": false,
				"address": [
					{
						"line": [
							"31 THE AVENUE",
							"BERWICK COURT"
						],
						"postalCode": "KT4 7BS"
					}
				],
				"generalPractitioner": [
					{
						"reference": "PractitionerRole/PractitionerRole-AeroSmith-Example",
						"identifier": {
							"system": "https://fhir.hl7.org.uk/Id/gmp-number",
							"value": "G9999999"
						},
						"display": "Dr. Aero Smith, anywhere place"
					}
				],
				"link": [
					{
						"other": {
							"reference": "https://api.service.nhs.uk/personal-demographics/FHIR/R4/Patient/9449307946"
						},
						"type": "seealso"
					}
				]
			},
      "request": {
        "method": "POST",
        "url": "Patient"
      }
		},
		{
			"fullUrl": "http://example.org/fhir/Observation/Observation-GenomicEthnicity-Example",
			"resource": {
				"resourceType": "Observation",
				"id": "Observation-GenomicEthnicity-Example",
				"status": "preliminary",
				"code": {
					"coding": [
						{
							"system": "http://snomed.info/sct",
							"code": "723621000000103",
							"display": "Ethnicity"
						}
					]
				},
				"subject": {
					"reference": "Patient/Patient-LindsaySorrell-Example",
					"identifier": {
						"system": "https://fhir.nhs.uk/Id/nhs-number",
						"value": "9449307946"
					}
				},
				"valueString": "unknown"
			},
      "request": {
        "method": "POST",
        "url": "Observation"
      }
		},
		{
			"fullUrl": "http://example.org/fhir/ServiceRequest/ServiceRequest-WGSTestOrderForm-Example",
			"resource": {
				"resourceType": "ServiceRequest",
				"id": "ServiceRequest-WGSTestOrderForm-Example",
				"extension": [
					{
						"url": "https://fhir.hl7.org.uk/StructureDefinition/Extension-UKCore-Coverage",
						"valueCodeableConcept": {
							"coding": [
								{
									"system": "https://fhir.hl7.org.uk/CodeSystem/UKCore-FundingCategory",
									"code": "nhs",
									"display": "NHS"
								}
							]
						}
					}
				],
				"status": "active",
				"intent": "order",
				"category": [
					{
						"coding": [
							{
								"system": "https://fhir.hl7.org.uk/CodeSystem/UKCore-GenomeSequencingCategory",
								"code": "rare-disease-wgs",
								"display": "Rare Disease - WGS"
							}
						]
					}
				],
				"priority": "routine",
				"code": {
					"coding": [
						{
							"system": "https://fhir.nhs.uk/CodeSystem/England-GenomicTestDirectory",
							"code": "R193.4",
							"display": "Cystic renal disease"
						}
					]
				},
				"subject": {
					"reference": "Patient/Patient-LindsaySorrell-Example"
					"identifier": {
						"system": "https://fhir.nhs.uk/Id/nhs-number",
						"value": "9449307946"
					}
				},
				"authoredOn": "2023-08-08",
				"requester": {
					"reference": "PractitionerRole/PractitionerRole-HazelSmithRenal-Example"
					"identifier": {
						"system": "https://fhir.nhs.uk/Id/sds-user-id",
						"value": "9999999998"
					}
				},
				"reasonCode": [
					{
						"coding": [
							{
								"system": "http://snomed.info/sct",
								"code": "103693007",
								"display": "Diagnostic procedure"
							}
						]
					}
				],
				"reasonReference": [
					{
						"reference": "Condition/Condition-DiseaseStatus-Example"
					}
				],
				"supportingInfo": [
					{
						"reference": "Observation/Observation-GenomicEthnicity-Example"
					},
					{
						"reference": "Observation/Observation-NoPregnancy-Example"
					},
					{
						"reference": "FamilyMemberHistory/FamilyMemberHistory-NonConsanguinousUnion-Example"
					},
					{
						"reference": "Procedure/Procedure-NoBoneMarrowTransplant-Example"
					},
					{
						"reference": "Procedure/Procedure-NoTransfusion-Example"
					},
					{
						"reference": "Observation/Observation-MultipleRenalCysts-Example"
					},
					{
						"reference": "Observation/Observation-Nephronophthisis-Example"
					},
					{
						"reference": "Observation/Observation-HepaticCysts-Example"
					},
					{
						"reference": "Observation/Observation-EnlargedKidney-Example"
					},
					{
						"reference": "Observation/Observation-RenalInsufficiency-Example"
					},
					{
						"reference": "Consent/Consent-RoDToFollow-Example"
					}
				],
				"note": [
					{
						"text": "No family history of genomic testing"
					},
					{
						"text": "Free text for diagnosis/reason for referral, relevant information including family history, phenotypic details/ HPO Terms<br />Patient diagnoses with ADPKD (example)"
					}
				]
			},
      "request": {
        "method": "POST",
        "url": "ServiceRequest"
      }
		},
		{
			"fullUrl": "http://example.org/fhir/Observation/Observation-NoPregnancy-Example",
			"resource": {
				"resourceType": "Observation",
				"id": "Observation-NoPregnancy-Example",
				"status": "final",
				"code": {
					"coding": [
						{
							"system": "http://snomed.info/sct",
							"code": "60001007",
							"display": "Not pregnant"
						}
					]
				},
				"subject": {
					"reference": "Patient/Patient-LindsaySorrell-Example",
					"identifier": {
						"system": "https://fhir.nhs.uk/Id/nhs-number",
						"value": "9449307946"
					}
				},
				"effectiveDateTime": "2023-08-05",
				"valueBoolean": true
			},
      "request": {
        "method": "POST",
        "url": "Observation"
      }
		},
		{
			"fullUrl": "http://example.org/fhir/Condition/Condition-DiseaseStatus-Example",
			"resource": {
				"resourceType": "Condition",
				"id": "Condition-DiseaseStatus-Example",
				"clinicalStatus": {
					"coding": [
						{
							"system": "http://terminology.hl7.org/CodeSystem/condition-clinical",
							"code": "inactive",
							"display": "Inactive"
						}
					]
				},
				"code": {
					"coding": [
						{
							"system": "https://fhir.nhs.uk/CodeSystem/England-GenomicTestDirectory",
							"code": "R193.4",
							"display": "Cystic renal disease"
						}
					]
				},
				"subject": {
					"reference": "Patient/Patient-LindsaySorrell-Example",
					"identifier": {
						"system": "https://fhir.nhs.uk/Id/nhs-number",
						"value": "9449307946"
					}
				}
			},
      "request": {
        "method": "POST",
        "url": "Condition"
      }
		},
		{
			"fullUrl": "http://example.org/fhir/FamilyMemberHistory/FamilyMemberHistory-NonConsanguinousUnion-Example",
			"resource": {
				"resourceType": "FamilyMemberHistory",
				"id": "FamilyMemberHistory-NonConsanguinousUnion-Example",
				"extension": [
					{
						"url": "http://hl7.org/fhir/StructureDefinition/family-member-history-genetics-observation",
						"valueReference": {
							"reference": "Observation/Observation-NonConsanguinousUnion-Example"
						}
					}
				],
				"status": "completed",
				"patient": {
					"reference": "Patient/Patient-LindsaySorrell-Example",
					"identifier": {
						"system": "https://fhir.nhs.uk/Id/nhs-number",
						"value": "9449307946"
					}
				},
				"relationship": {
					"coding": [
						{
							"system": "http://terminology.hl7.org/CodeSystem/v3-RoleCode",
							"code": "PRN",
							"display": "parent"
						}
					]
				}
			},
      "request": {
        "method": "POST",
        "url": "FamilyMemberHistory"
      }
		},
		{
			"fullUrl": "http://example.org/fhir/Observation/Observation-NonConsanguinousUnion-Example",
			"resource": {
				"resourceType": "Observation",
				"id": "Observation-NonConsanguinousUnion-Example",
				"status": "final",
				"code": {
					"coding": [
						{
							"system": "http://snomed.info/sct",
							"code": "842009",
							"display": "Consanguinity"
						}
					]
				},
				"subject": {
					"reference": "Patient/Patient-LindsaySorrell-Example",
					"identifier": {
						"system": "https://fhir.nhs.uk/Id/nhs-number",
						"value": "9449307946"
					}
				},
				"effectiveDateTime": "2023-08-05",
				"valueBoolean": false
			},
      "request": {
        "method": "POST",
        "url": "Observation"
      }
		},
		{
			"fullUrl": "http://example.org/fhir/Procedure/Procedure-NoBoneMarrowTransplant-Example",
			"resource": {
				"resourceType": "Procedure",
				"id": "Procedure-NoBoneMarrowTransplant-Example",
				"status": "not-done",
				"code": {
					"coding": [
						{
							"system": "http://snomed.info/sct",
							"code": "77465005",
							"display": "Transplantation of bone marrow"
						}
					]
				},
				"subject": {
					"reference": "Patient/Patient-LindsaySorrell-Example",
					"identifier": {
						"system": "https://fhir.nhs.uk/Id/nhs-number",
						"value": "9449307946"
					}
				}
			},
      "request": {
        "method": "POST",
        "url": "Procedure"
      }
		},
		{
			"fullUrl": "http://example.org/fhir/Procedure/Procedure-NoTransfusion-Example",
			"resource": {
				"resourceType": "Procedure",
				"id": "Procedure-NoTransfusion-Example",
				"status": "not-done",
				"code": {
					"coding": [
						{
							"system": "http://snomed.info/sct",
							"code": "5447007",
							"display": "Transfusion"
						}
					]
				},
				"subject": {
					"reference": "Patient/Patient-LindsaySorrell-Example",
					"identifier": {
						"system": "https://fhir.nhs.uk/Id/nhs-number",
						"value": "9449307946"
					}
				}
			},
      "request": {
        "method": "POST",
        "url": "Procedure"
      }
		},
		{
			"fullUrl": "http://example.org/fhir/Observation/Observation-MultipleRenalCysts-Example",
			"resource": {
				"resourceType": "Observation",
				"id": "Observation-MultipleRenalCysts-Example",
				"status": "final",
				"code": {
					"coding": [
						{
							"system": "https://hpo.jax.org/app/",
							"code": "HP:0005562",
							"display": "Multiple renal cysts"
						}
					]
				},
				"subject": {
					"reference": "Patient/Patient-LindsaySorrell-Example",
					"identifier": {
						"system": "https://fhir.nhs.uk/Id/nhs-number",
						"value": "9449307946"
					}
				},
				"valueBoolean": false
			},
      "request": {
        "method": "POST",
        "url": "Observation"
      }
		},
		{
			"fullUrl": "http://example.org/fhir/Observation/Observation-Nephronophthisis-Example",
			"resource": {
				"resourceType": "Observation",
				"id": "Observation-Nephronophthisis-Example",
				"status": "final",
				"code": {
					"coding": [
						{
							"system": "https://hpo.jax.org/app/",
							"code": "HP:0000090",
							"display": "Nephronophthisis"
						}
					]
				},
				"subject": {
					"reference": "Patient/Patient-LindsaySorrell-Example",
					"identifier": {
						"system": "https://fhir.nhs.uk/Id/nhs-number",
						"value": "9449307946"
					}
				},
				"valueBoolean": false
			},
      "request": {
        "method": "POST",
        "url": "Observation"
      }
		},
		{
			"fullUrl": "http://example.org/fhir/Observation/Observation-HepaticCysts-Example",
			"resource": {
				"resourceType": "Observation",
				"id": "Observation-HepaticCysts-Example",
				"status": "final",
				"code": {
					"coding": [
						{
							"system": "https://hpo.jax.org/app/",
							"code": "HP:0001407",
							"display": "Hepatic cysts"
						}
					]
				},
				"subject": {
					"reference": "Patient/Patient-LindsaySorrell-Example",
					"identifier": {
						"system": "https://fhir.nhs.uk/Id/nhs-number",
						"value": "9449307946"
					}
				},
				"valueBoolean": false
			},
      "request": {
        "method": "POST",
        "url": "Observation"
      }
		},
		{
			"fullUrl": "http://example.org/fhir/Observation/Observation-EnlargedKidney-Example",
			"resource": {
				"resourceType": "Observation",
				"id": "Observation-EnlargedKidney-Example",
				"status": "final",
				"code": {
					"coding": [
						{
							"system": "https://hpo.jax.org/app/",
							"code": "HP:0000105",
							"display": "Enlarged kidney"
						}
					]
				},
				"subject": {
					"reference": "Patient/Patient-LindsaySorrell-Example",
					"identifier": {
						"system": "https://fhir.nhs.uk/Id/nhs-number",
						"value": "9449307946"
					}
				},
				"valueBoolean": true
			},
      "request": {
        "method": "POST",
        "url": "Observation"
      }
		},
		{
			"fullUrl": "http://example.org/fhir/Observation/Observation-RenalInsufficiency-Example",
			"resource": {
				"resourceType": "Observation",
				"id": "Observation-RenalInsufficiency-Example",
				"status": "final",
				"code": {
					"coding": [
						{
							"system": "https://hpo.jax.org/app/",
							"code": "HP:0000083",
							"display": "Renal insufficiency"
						}
					]
				},
				"subject": {
					"reference": "Patient/Patient-LindsaySorrell-Example",
					"identifier": {
						"system": "https://fhir.nhs.uk/Id/nhs-number",
						"value": "9449307946"
					}
				},
				"valueBoolean": true
			},
      "request": {
        "method": "POST",
        "url": "Observation"
      }
		},
		{
			"fullUrl": "http://example.org/fhir/Specimen/Specimen-BloodEDTA-Example",
			"resource": {
				"resourceType": "Specimen",
				"id": "Specimen-BloodEDTA-Example",
				"identifier": [
					{
						"system": "https://fhir.add.nhs.uk/Id/specimenId",
						"value": "RGT03135"
					}
				],
				"status": "unavailable"
				"type": {
					"coding": [
						{
							"system": "http://snomed.info/sct",
							"code": "445295009",
							"display": "Blood specimen with EDTA"
						}
					]
				},
				"subject": {
					"reference": "Patient/Patient-LindsaySorrell-Example",
					"identifier": {
						"system": "https://fhir.nhs.uk/Id/nhs-number",
						"value": "9449307946"
					}
				},
				"request": {
					"reference": "ServiceRequest/ServiceRequest-NonWGSTestOrderForm-Example",
				}
			},
      "request": {
        "method": "POST",
        "url": "Specimen"
      }
		},
		{
			"fullUrl": "http://example.org/fhir/Consent/Consent-RoDToFollow-Example",
			"resource": {
				"resourceType": "Consent",
				"id": "Consent-RoDToFollow-Example",
				"status": "proposed",
				"scope": {
					"coding": [
						{
							"system": "http://terminology.hl7.org/CodeSystem/consentscope",
							"code": "research",
							"display": "Research"
						}
					]
				},
				"category": [
					{
						"coding": [
							{
								"system": "http://terminology.hl7.org/CodeSystem/consentcategorycodes",
								"code": "research",
								"display": "Research Information Access"
							}
						]
					}
				]
			},
			"request": {
        "method": "POST",
        "url": "Consent"
      }
		}
	]
}