{
  "resourceType": "Bundle",
  "id": "Bundle-NonWGSTestOrderForm-FetalScenario-Example",
  "type": "transaction",
  "entry": [
    {
      "fullUrl": "http://example.org/fhir/PractitionerRole/PractitionerRole-LoisLaneKingstonClinicalGenetics-Example",
      "resource": {
        "resourceType": "PractitionerRole",
        "id": "PractitionerRole-LoisLaneKingstonClinicalGenetics-Example",
        "practitioner": {
          "identifier": {
            "system": "https://fhir.nhs.uk/Id/sds-user-id",
            "value": "9999999999"
          },
          "display": "Dr. Lois Lane"
        },
        "organization": {
          "identifier": {
            "system": "https://fhir.nhs.uk/Id/ods-organization-code",
            "value": "RAX"
          },
          "display": "Kingston Hospital NHS Foundation Trust"
        },
        "specialty": [
          {
            "coding": [
              {
                "system": "https://fhir.hl7.org.uk/CodeSystem/UKCore-PracticeSettingCode",
                "code": "311",
                "display": "Clinical Genetics"
              }
            ]
          }
        ],
        "telecom": [
          {
            "system": "phone",
            "value": "02068457781"
          },
          {
            "system": "email",
            "value": "lois.lane1@nhs.net"
          },
          {
            "system": "email",
            "value": "clinicalgeneticskingston@nhs.net",
            "extension": [
              {
                "url": "http://hl7.org/fhir/StructureDefinition/contactpoint-comment",
                "valueString": "reporting"
              }
            ]
          },
          {
            "system": "email",
            "value": "fetalmedicinekingston@nhs.net",
            "extension": [
              {
                "url": "http://hl7.org/fhir/StructureDefinition/contactpoint-comment",
                "valueString": "reporting"
              }
            ]
          },
          {
            "system": "email",
            "value": "gptestpracticekingston@nhs.net",
            "extension": [
              {
                "url": "http://hl7.org/fhir/StructureDefinition/contactpoint-comment",
                "valueString": "reporting"
              }
            ]
          }
        ]
      },
      "request": {
        "method": "POST",
        "url": "PractitionerRole"
      }
    },
    {
      "fullUrl": "http://example.org/fhir/Patient/Patient-RyanneBoulder-Example",
      "resource": {
        "resourceType": "Patient",
        "id": "Patient-RyanneBoulder-Example",
        "extension": [
          {
            "url": "https://fhir.hl7.org.uk/StructureDefinition/Extension-UKCore-BirthSex",
            "valueCode": "F"
          },
          {
            "url": "https://fhir.hl7.org.uk/StructureDefinition/Extension-UKCore-EthnicCategory",
            "valueCodeableConcept": {
              "coding": [
                {
                  "system": "https://fhir.hl7.org.uk/CodeSystem/UKCore-EthnicCategoryEngland",
                  "code": "A",
                  "display": "White - British"
                }
              ]
            }
          }
        ],
        "identifier": [
          {
            "system": "https://fhir.nhs.uk/Id/nhs-number",
            "value": "9449307687",
            "extension": [
              {
                "url": "https://fhir.hl7.org.uk/StructureDefinition/Extension-UKCore-NHSNumberVerificationStatus",
                "valueCodeableConcept": {
                  "coding": [
                    {
                      "system": "https://fhir.hl7.org.uk/CodeSystem/UKCore-NHSNumberVerificationStatusEngland",
                      "version": "2.2.0",
                      "code": "01",
                      "display": "Number present and verified"
                    }
                  ]
                }
              }
            ]
          },
          {
            "system": "urn:oid:2.16.840.1.113883.2.1.3.2.4.18.24",
            "value": "RWT13521",
            "assigner": {
              "identifier": {
                "system": "https://fhir.nhs.uk/Id/ods-organization-code",
                "value": "RAX"
              }
            }
          }
        ],
        "name": [
          {
            "given": [
              "Ryanne"
            ],
            "family": "Boulder"
          }
        ],
        "gender": "female",
        "birthDate": "1980-09-02",
        "deceasedBoolean": false,
        "address": [
          {
            "line": [
              "53 Eastwick Pack Avenue",
              "Leatherhead",
              "Surrey"
            ],
            "postalCode": "KT23 3NP"
          }
        ],
        "generalPractitioner": [
          {
            "identifier": {
              "system": "https://fhir.hl7.org.uk/Id/gmp-number",
              "value": "G9999999"
            },
            "display": "Dr. Aero Smith"
          },
          {
            "identifier": {
              "system": "https://fhir.hl7.org.uk/Id/ODS-code",
              "value": "AP123"
            },
            "display": "anywhere place"
          }
        ],
        "link": [
          {
            "other": {
              "reference": "https://api.service.nhs.uk/personal-demographics/FHIR/R4/Patient/9449307687"
            },
            "type": "seealso"
          }
        ]
      },
      "request": {
        "method": "POST",
        "url": "Patient",
        "ifNoneExist": "Patient?identifier=https://fhir.nhs.uk/Id/nhs-number|9449307687"
      }
    },
    {
      "fullUrl": "http://example.org/fhir/Observation/Observation-GenomicEthnicity-Example",
      "resource": {
        "resourceType": "Observation",
        "id": "Observation-GenomicEthnicity-Example",
        "status": "preliminary",
        "code": {
          "coding": [
            {
              "system": "http://snomed.info/sct",
              "code": "723621000000103",
              "display": "Ethnicity"
            }
          ]
        },
        "subject": {
          "reference": "Patient/Patient-RyanneBoulder-Example",
          "identifier": {
            "system": "https://fhir.nhs.uk/Id/nhs-number",
            "value": "9449307687"
          }
        },
        "valueString": "unknown"
      },
      "request": {
        "method": "POST",
        "url": "Observation"
      }
    },
    {
      "fullUrl": "http://example.org/fhir/ServiceRequest/ServiceRequest-NonWGSTestOrderForm-FetalScenario-Example",
      "resource": {
        "resourceType": "ServiceRequest",
        "id": "ServiceRequest-NonWGSTestOrderForm-FetalScenario-Example",
        "extension": [
          {
            "url": "https://fhir.hl7.org.uk/StructureDefinition/Extension-UKCore-Coverage",
            "valueCodeableConcept": {
              "coding": [
                {
                  "system": "https://fhir.hl7.org.uk/CodeSystem/UKCore-FundingCategory",
                  "code": "nhs",
                  "display": "NHS"
                }
              ]
            }
          }
        ],
        "status": "active",
        "intent": "order",
        "category": [
          {
            "coding": [
              {
                "system": "https://fhir.hl7.org.uk/CodeSystem/UKCore-GenomeSequencingCategory",
                "code": "rare-disease-non-wgs",
                "display": "Rare Disease - Non-WGS"
              }
            ]
          }
        ],
        "priority": "urgent",
        "code": {
          "coding": [
            {
              "system": "https://fhir.nhs.uk/CodeSystem/England-GenomicTestDirectory",
              "code": "R21",
              "display": "Fetal anomalies with a likely genetic cause"
            }
          ]
        },
        "subject": {
          "reference": "Patient/Patient-RyanneBoulder-Example",
          "identifier": {
            "system": "https://fhir.nhs.uk/Id/nhs-number",
            "value": "9449307687"
          }
        },
        "authoredOn": "2023-09-25",
        "requester": {
          "reference": "PractitionerRole/PractitionerRole-LoisLaneKingstonClinicalGenetics-Example"
        },
        "reasonCode": [
          {
            "coding": [
              {
                "system": "http://snomed.info/sct",
                "code": "243787009",
                "display": "Antenatal screening"
              }
            ]
          }
        ],
        "supportingInfo": [
          {
            "reference": "Observation/Observation-HistoryOfFetalLoss-Example"
          },
          {
            "reference": "Observation/Observation-NonConsanguinousUnion-Example"
          },
          {
            "reference": "Observation/Observation-GenomicEthnicity-Example"
          },
          {
            "reference": "Observation/Observation-PregnancyConfirmation-Example"
          },
          {
            "reference": "Observation/Observation-FetalPhenotypicSex-Example"
          },
          {
            "reference": "Observation/Observation-NoTransplant-Example"
          },
          {
            "reference": "Observation/Observation-NoFirstTrimesterFetalAnomalies-Example"
          },
          {
            "reference": "Observation/Observation-NoSecondTrimesterFetalAnomalies-Example"
          },
          {
            "reference": "Procedure/Procedure-InVitroFertilisation-Example"
          },
          {
            "reference": "Specimen/Specimen-BloodEDTA-Example"
          }
        ],
        "note": [
          {
            "text": "No family history of relevant testing"
          },
          {
            "text": "Free text for diagnosis/reason for referral, relevant information including family history, phenotypic details/ HPO Terms/ E.g. large echogenic kidneys with normal bladder"
          }
        ]
      },
      "request": {
        "method": "POST",
        "url": "ServiceRequest"
      }
    },
    {
      "fullUrl": "http://example.org/fhir/Observation/Observation-PregnancyConfirmation-Example",
      "resource": {
        "resourceType": "Observation",
        "id": "Observation-PregnancyConfirmation-Example",
        "status": "final",
        "code": {
          "coding": [
            {
              "system": "http://snomed.info/sct",
              "code": "77386006",
              "display": "Pregnancy"
            }
          ]
        },
        "subject": {
          "reference": "Patient/Patient-RyanneBoulder-Example",
          "identifier": {
            "system": "https://fhir.nhs.uk/Id/nhs-number",
            "value": "9449307687"
          }
        },
        "component": [
          {
            "code": {
              "coding": [
                {
                  "system": "http://snomed.info/sct",
                  "code": "720451000000102",
                  "display": "Assisted conception"
                }
              ]
            }
          }
        ],
        "effectiveDateTime": "2023-08-05",
        "valueBoolean": true
      },
      "request": {
        "method": "POST",
        "url": "Observation"
      }
    },
    {
      "fullUrl": "http://example.org/fhir/Observation/Observation-EstimatedDateOfDelivery-Example",
      "resource": {
        "resourceType": "Observation",
        "id": "Observation-EstimatedDateOfDelivery-Example",
        "status": "final",
        "code": {
          "coding": [
            {
              "system": "http://snomed.info/sct",
              "code": "161714006",
              "display": "Estimated date of delivery"
            }
          ]
        },
        "subject": {
          "reference": "Patient/Patient-RyanneBoulder-Example",
          "identifier": {
            "system": "https://fhir.nhs.uk/Id/nhs-number",
            "value": "9449307687"
          }
        },
        "effectiveDateTime": "2023-08-05",
        "valueDateTime": "2024-05-01"
      },
      "request": {
        "method": "POST",
        "url": "Observation"
      }
    },
    {
      "fullUrl": "http://example.org/fhir/Observation/Observation-NonConsanguinousUnion-Example",
      "resource": {
        "resourceType": "Observation",
        "id": "Observation-NonConsanguinousUnion-Example",
        "status": "final",
        "code": {
          "coding": [
            {
              "system": "http://snomed.info/sct",
              "code": "842009",
              "display": "Consanguinity"
            }
          ]
        },
        "subject": {
          "reference": "Patient/Patient-RyanneBoulder-Example",
          "identifier": {
            "system": "https://fhir.nhs.uk/Id/nhs-number",
            "value": "9449307687"
          }
        },
        "effectiveDateTime": "2023-08-05",
        "valueBoolean": false
      },
      "request": {
        "method": "POST",
        "url": "Observation"
      }
    },
    {
      "fullUrl": "http://example.org/fhir/Observation/Observation-GestationalAge-Example",
      "resource": {
        "resourceType": "Observation",
        "id": "Observation-GestationalAge-Example",
        "status": "final",
        "code": {
          "coding": [
            {
              "system": "http://snomed.info/sct",
              "code": "226081000000107",
              "display": "Gestational age"
            }
          ]
        },
        "subject": {
          "reference": "Patient/Patient-RyanneBoulder-Example",
          "identifier": {
            "system": "https://fhir.nhs.uk/Id/nhs-number",
            "value": "9449307687"
          }
        },
        "effectiveDateTime": "2023-08-05",
        "valueString": "12 weeks 3 days"
      },
      "request": {
        "method": "POST",
        "url": "Observation"
      }
    },
    {
      "fullUrl": "http://example.org/fhir/Observation/Observation-NoTransplant-Example",
      "resource": {
        "resourceType": "Observation",
        "id": "Observation-NoTransplant-Example",
        "status": "final",
        "code": {
          "coding": [
            {
              "system": "http://snomed.info/sct",
              "code": "77465005",
              "display": "Transplantation"
            }
          ]
        },
        "subject": {
          "reference": "Patient/Patient-RyanneBoulder-Example",
          "identifier": {
            "system": "https://fhir.nhs.uk/Id/nhs-number",
            "value": "9449307687"
          }
        },
        "effectiveDateTime": "2023-08-05",
        "valueBoolean": false
      },
      "request": {
        "method": "POST",
        "url": "Observation"
      }
    },
    {
      "fullUrl": "http://example.org/fhir/Observation/Observation-NoFirstTrimesterFetalAnomalies-Example",
      "resource": {
        "resourceType": "Observation",
        "id": "Observation-NoFirstTrimesterFetalAnomalies-Example",
        "status": "final",
        "code": {
          "coding": [
            {
              "system": "http://snomed.info/sct",
              "code": "19169002",
              "display": "Miscarriage in first trimester"
            }
          ],
          "text": "First Trimester Anomalies?"
        },
        "subject": {
          "reference": "Patient/Patient-RyanneBoulder-Example",
          "identifier": {
            "system": "https://fhir.nhs.uk/Id/nhs-number",
            "value": "9449307687"
          }
        },
        "effectiveDateTime": "2023-08-05",
        "valueBoolean": false
      },
      "request": {
        "method": "POST",
        "url": "Observation"
      }
    },
    {
      "fullUrl": "http://example.org/fhir/Observation/Observation-NoSecondTrimesterFetalAnomalies-Example",
      "resource": {
        "resourceType": "Observation",
        "id": "Observation-NoSecondTrimesterFetalAnomalies-Example",
        "status": "final",
        "code": {
          "coding": [
            {
              "system": "http://snomed.info/sct",
              "code": "85116003",
              "display": "Miscarriage in second trimester"
            }
          ],
          "text": "Second Trimester Anomalies?"
        },
        "subject": {
          "reference": "Patient/Patient-RyanneBoulder-Example",
          "identifier": {
            "system": "https://fhir.nhs.uk/Id/nhs-number",
            "value": "9449307687"
          }
        },
        "effectiveDateTime": "2023-08-05",
        "valueBoolean": false
      },
      "request": {
        "method": "POST",
        "url": "Observation"
      }
    },
    {
      "fullUrl": "http://example.org/fhir/Procedure/Procedure-InVitroFertilisation-Example",
      "resource": {
        "resourceType": "Procedure",
        "id": "Procedure-InVitroFertilisation-Example",
        "status": "completed",
        "code": {
          "coding": [
            {
              "system": "http://snomed.info/sct",
              "code": "52637005",
              "display": "In vitro fertilization"
            }
          ]
        },
        "subject": {
          "identifier": {
            "system": "https://fhir.nhs.uk/Id/nhs-number",
            "value": "9449307687"
          }
        },
        "performedDateTime": "2023-08-05",
        "note": [
          {
            "text": "Woman`s own egg"
          }
        ]
      },
      "request": {
        "method": "POST",
        "url": "Procedure"
      }
    },
    {
      "fullUrl": "http://example.org/fhir/Specimen/Specimen-BloodEDTA-Example",
      "resource": {
        "resourceType": "Specimen",
        "id": "Specimen-BloodEDTA-Example",
        "identifier": [
          {
            "system": "https://fhir.add.nhs.uk/Id/specimenId",
            "value": "RGT03135"
          }
        ],
        "status": "unavailable",
        "type": {
          "coding": [
            {
              "system": "http://snomed.info/sct",
              "code": "445295009",
              "display": "Blood specimen with EDTA"
            }
          ]
        },
        "subject": {
          "reference": "Patient/Patient-RyanneBoulder-Example",
          "identifier": {
            "system": "https://fhir.nhs.uk/Id/nhs-number",
            "value": "9449307687"
          }
        },
        "request": [
          {
            "reference": "ServiceRequest/ServiceRequest-NonWGSTestOrderForm-FetalScenario-Example"
          }
        ]
      },
      "request": {
        "method": "POST",
        "url": "Specimen"
      }
    }
  ]
}