{
   "resourceType": "Bundle",
   "id": "UKCore-Bundle-MichaelJonesMitochondriaRequest-Example",
   "identifier": {
      "system": "https://tools.ietf.org/html/rfc4122",
      "value": "7992ed22-ca8d-4c24-886e-abe85c5e2ca6"
   },
   "meta": {
      "lastUpdated": "2023-03-28T17:32:06.030Z"
   },
   "type": "transaction",
   "entry": [
      {
         "fullUrl": "urn:uuid:9fd5cd87-3668-4946-a109-6e54d0a9df3b",
         "resource": {
            "resourceType": "Patient",
            "id": "9fd5cd87-3668-4946-a109-6e54d0a9df3b",
            "extension": [
               {
                  "url": "https://fhir.hl7.org.uk/StructureDefinition/Extension-UKCore-BirthSex",
                  "valueCode": "F"
               },
               {
                  "url": "https://fhir.hl7.org.uk/StructureDefinition/Extension-UKCore-EthnicCategory",
                  "valueCodeableConcept": {
                     "coding": [
                        {
                           "system": "https://fhir.hl7.org.uk/CodeSystem/UKCore-EthnicCategoryEngland",
                           "code": "A",
                           "display": "White - British"
                        }
                     ]
                  }
               },
               {
                  "url": "https://fhir.hl7.org.uk/StructureDefinition/Extension-UKCore-ResidentialStatus",
                  "valueCodeableConcept": {
                     "coding": [
                        {
                           "system": "https://fhir.hl7.org.uk/CodeSystem/UKCore-ResidentialStatus",
                           "code": "H",
                           "display": "UK Residenr"
                        }
                     ]
                  }
               }
            ],
            "identifier": [
               {
                  "extension": [
                     {
                        "url": "https://fhir.hl7.org.uk/StructureDefinition/Extension-UKCore-NHSNumberVerificationStatus",
                        "valueCodeableConcept": {
                           "coding": [
                              {
                                 "system": "https://fhir.hl7.org.uk/CodeSystem/UKCore-NHSNumberVerificationStatusEngland",
                                 "code": "01",
                                 "display": "Number present and verified"
                              }
                           ]
                        }
                     }
                  ],
                  "use": "official",
                  "system": "https://fhir.nhs.uk/Id/nhs-number",
                  "value": "9999999999"
               },
               {
                  "use": "secondary",
                  "system": "https://www.ouh.nhs.uk/",
                  "value": "99955524",
                  "assigner": {
                     "reference": "urn:uuid:b5e7552d-a32a-49d0-afe9-fdc9b62a1dc1"
                  }
               }
            ],
            "name": [
               {
                  "use": "official",
                  "text": "Michael Chalmers",
                  "family": "Chalmers",
                  "given": [
                     "Michael"
                  ]
               }
            ],
            "gender": "male",
            "birthDate": "2020-01-28",
            "address": [
               {
                  "type": "both",
                  "line": [
                     "Abingdon Road"
                  ],
                  "city": "Oxford",
                  "postalCode": "0X1 4XL"
               }
            ],
            "generalPractitioner": [
               {
                  "reference": "urn:uuid:73cbac1d-0ea3-4b3c-aec6-03076cde5ecd",
                  "identifier": {
                     "system": "https://fhir.hl7.org.uk/Id/gmc-number",
                     "value": "C5173256"
                  }
               }
            ],
            "managingOrganization": {
               "reference": "urn:uuid:b5e7552d-a32a-49d0-afe9-fdc9b62a1dc1",
               "identifier": {
                  "system": "https://fhir.nhs.uk/Id/ods-organization-code",
                  "value": "RTH02"
               }
            }
         },
         "request": {
            "method": "POST",
            "url": "urn:uuid:9fd5cd87-3668-4946-a109-6e54d0a9df3b",
            "ifNoneExist": "identifier=https://www.ouh.nhs.uk//ids|99955524"
         }
      },
      {
         "fullUrl": "urn:uuid:b5e7552d-a32a-49d0-afe9-fdc9b62a1dc1",
         "resource": {
            "resourceType": "Organization",
            "id": "b5e7552d-a32a-49d0-afe9-fdc9b62a1dc1",
            "identifier": [
               {
                  "system": "https://fhir.nhs.uk/Id/ods-organization-code",
                  "value": "RTH02"
               }
            ],
            "type": [
               {
                  "coding": [
                     {
                        "system": "https://fhir.nhs.uk/CodeSystem/organisation-role\"",
                        "code": "198",
                        "display": "NHS TRUST SITE"
                     }
                  ]
               }
            ],
            "name": "The Churchill Hospital",
            "telecom": [
               {
                  "system": "phone",
                  "value": "01865 226001",
                  "use": "work"
               },
               {
                  "system": "email",
                  "value": "orh-tr.dutyscientist.oxfordgen@nhs.net",
                  "use": "work"
               }
            ],
            "address": [
               {
                  "type": "both",
                  "line": [
                     "Oxford Regional Genetics Laboratories",
                     "Oxford University Hospitals NHS Foundation Trust",
                     "The Churchill Hospital",
                     "Old Road Headignton",
                     "Oxfordshire"
                  ],
                  "city": "Oxford",
                  "postalCode": "OX3 7LE"
               }
            ],
            "partOf": {
               "identifier": {
                  "system": "https://fhir.nhs.uk/Id/ods-organization-code",
                  "value": "RTH"
               },
               "display": "OXFORD UNIVERSITY HOSPITALS NHS FOUNDATION TRUST (RTH)"
            },
            "contact": [
               {
                  "purpose": {
                     "coding": [
                        {
                           "system": "http://terminology.hl7.org/CodeSystem/contactentity-type",
                           "code": "ADMIN",
                           "display": "Administrative"
                        }
                     ]
                  }
               }
            ],
            "endpoint": [
               {
                  "display": "UKCore-Endpoint-RTH-Example"
               }
            ]
         },
         "request": {
            "method": "POST",
            "url": "urn:uuid:b5e7552d-a32a-49d0-afe9-fdc9b62a1dc1"
         }
      },
      {
         "fullUrl": "urn:uuid:43a91e0a-17ee-4525-9094-eb8189350960",
         "resource": {
            "resourceType": "Organization",
            "id": "43a91e0a-17ee-4525-9094-eb8189350960",
            "identifier": [
               {
                  "system": "https://fhir.nhs.uk/Id/ods-organization-code",
                  "value": "699P0"
               }
            ],
            "type": [
               {
                  "coding": [
                     {
                        "system": "https://fhir.nhs.uk/CodeSystem/organisation-role",
                        "code": "173",
                        "display": "PATHOLOGY LAB"
                     }
                  ]
               }
            ],
            "name": "Pathology Lab - Central and South Genomic Laboratory Hub led by Birmingham Women’s and Children NHS Foundation Trust",
            "address": [
               {
                  "type": "both",
                  "line": [
                     "BIRMINGHAM WOMENS HOSPITAL",
                     "WOMENS HEALTH CARE",
                     "MINDELSOHN WAY",
                     "BIRMINGHAM",
                     "WEST MIDLANDS"
                  ],
                  "city": "BIRMINGHAM",
                  "postalCode": "B15 2TG"
               }
            ],
            "partOf": {
               "identifier": {
                  "system": "https://fhir.nhs.uk/Id/ods-organization-code",
                  "value": "RQ3"
               },
               "display": "BIRMINGHAM WOMEN'S AND CHILDREN'S NHS FOUNDATION TRUST"
            },
            "contact": [
               {
                  "purpose": {
                     "coding": [
                        {
                           "system": "http://terminology.hl7.org/CodeSystem/contactentity-type",
                           "code": "ADMIN",
                           "display": "Administrative"
                        }
                     ]
                  },
                  "telecom": [
                     {
                        "system": "email",
                        "value": "GMSAAdmin@uhb.nhs.uk"
                     }
                  ]
               }
            ],
            "endpoint": [
               {
                  "display": "UKCore-Endpoint-CentralandSouthGLH-Example"
               }
            ]
         },
         "request": {
            "method": "POST",
            "url": "urn:uuid:43a91e0a-17ee-4525-9094-eb8189350960"
         }
      },
      {
         "fullUrl": "urn:uuid:73cbac1d-0ea3-4b3c-aec6-03076cde5ecd",
         "resource": {
            "resourceType": "Practitioner",
            "id": "73cbac1d-0ea3-4b3c-aec6-03076cde5ecd",
            "identifier": [
               {
                  "use": "official",
                  "system": "https://fhir.hl7.org.uk/Id/gmc-number",
                  "value": "C5173256"
               }
            ],
            "name": [
               {
                  "use": "official",
                  "text": "Alexandra D'Nuovo",
                  "family": "D'Nuovo",
                  "given": [
                     "Alexandra",
                     "Romero"
                  ]
               }
            ],
            "qualification": [
               {
                  "code": {
                     "coding": [
                        {
                           "system": "http://terminology.hl7.org/CodeSystem/v2-0360",
                           "code": "MD",
                           "display": "Doctor of Medicine"
                        }
                     ]
                  }
               }
            ]
         },
         "request": {
            "method": "POST",
            "url": "urn:uuid:73cbac1d-0ea3-4b3c-aec6-03076cde5ecd"
         }
      },
      {
         "fullUrl": "urn:uuid:8d490f90-e24f-428d-8d9d-aecd9e699087",
         "resource": {
            "resourceType": "PractitionerRole",
            "id": "8d490f90-e24f-428d-8d9d-aecd9e699087",
            "identifier": [
               {
                  "system": "https://fhir.nhs.uk/Id/sds-role-profile-id",
                  "value": "100102238986"
               }
            ],
            "practitioner": {
               "reference": "urn:uuid:73cbac1d-0ea3-4b3c-aec6-03076cde5ecd"
            },
            "organization": {
               "reference": "urn:uuid:b5e7552d-a32a-49d0-afe9-fdc9b62a1dc1"
            },
            "telecom": [
               {
                  "system": "email",
                  "value": "Alexandra.Nuovo@nhs.net",
                  "use": "work"
               },
               {
                  "system": "phone",
                  "value": "02476151602",
                  "use": "work"
               }
            ]
         },
         "request": {
            "method": "POST",
            "url": "urn:uuid:8d490f90-e24f-428d-8d9d-aecd9e699087"
         }
      },
      {
         "fullUrl": "urn:uuid:d2a0760e-6e34-45b6-8cd0-5416a4bfa630",
         "resource": {
            "resourceType": "Specimen",
            "id": "d2a0760e-6e34-45b6-8cd0-5416a4bfa630",
            "accessionIdentifier": {
               "system": "https://www.ouh.nhs.uk//path",
               "value": "Spec123456"
            },
            "status": "available",
            "type": {
               "coding": [
                  {
                     "system": "http://snomed.info/sct",
                     "code": "87612001",
                     "display": "Blood (substance)"
                  }
               ]
            },
            "subject": {
               "reference": "urn:uuid:9fd5cd87-3668-4946-a109-6e54d0a9df3b"
            },
            "request": [
               {
                  "reference": "urn:uuid:490519b8-3724-4fe7-8367-9f859e7786b4"
               }
            ],
            "collection": {
               "collectedDateTime": "2022-07-11T09:00:00Z"
            }
         },
         "request": {
            "method": "POST",
            "url": "urn:uuid:d2a0760e-6e34-45b6-8cd0-5416a4bfa630"
         }
      },
      {
         "fullUrl": "urn:uuid:dcc6e70d-e97a-4078-a696-c522a30cc552",
         "resource": {
            "resourceType": "Condition",
            "id": "dcc6e70d-e97a-4078-a696-c522a30cc552",
            "clinicalStatus": {
               "coding": [
                  {
                     "system": "http://terminology.hl7.org/CodeSystem/condition-clinical",
                     "code": "active",
                     "display": "Active"
                  }
               ]
            },
            "verificationStatus": {
               "coding": [
                  {
                     "system": "http://terminology.hl7.org/CodeSystem/condition-ver-status",
                     "code": "provisional",
                     "display": "Provisional"
                  }
               ]
            },
            "code": {
               "coding": [
                  {
                     "system": "http://snomed.info/sct",
                     "code": "39925003",
                     "display": "MELAS/MERRF"
                  }
               ]
            },
            "subject": {
               "reference": "urn:uuid:9fd5cd87-3668-4946-a109-6e54d0a9df3b"
            },
            "onsetDateTime": "2022-06-13T09:00:00Z",
            "recordedDate": "2022-11-13T09:00:00Z"
         },
         "request": {
            "method": "POST",
            "url": "urn:uuid:dcc6e70d-e97a-4078-a696-c522a30cc552"
         }
      },
      {
         "fullUrl": "urn:uuid:585bd4e4-8e50-4adf-a333-d1ea9f594fe9",
         "resource": {
            "resourceType": "Condition",
            "id": "585bd4e4-8e50-4adf-a333-d1ea9f594fe9",
            "clinicalStatus": {
               "coding": [
                  {
                     "system": "http://terminology.hl7.org/CodeSystem/condition-clinical",
                     "code": "active",
                     "display": "Active"
                  }
               ]
            },
            "verificationStatus": {
               "coding": [
                  {
                     "system": "http://terminology.hl7.org/CodeSystem/condition-ver-status",
                     "code": "confirmed",
                     "display": "Confirmed"
                  }
               ]
            },
            "code": {
               "coding": [
                  {
                     "system": "http://snomed.info/sct",
                     "code": "221360009",
                     "display": "Spasticity and Mobility"
                  }
               ]
            },
            "subject": {
               "reference": "urn:uuid:9fd5cd87-3668-4946-a109-6e54d0a9df3b"
            },
            "onsetDateTime": "2022-06-13T09:00:00Z",
            "recordedDate": "2022-11-13T09:00:00Z"
         },
         "request": {
            "method": "POST",
            "url": "urn:uuid:585bd4e4-8e50-4adf-a333-d1ea9f594fe9"
         }
      },
      {
         "fullUrl": "urn:uuid:490519b8-3724-4fe7-8367-9f859e7786b4",
         "resource": {
            "resourceType": "ServiceRequest",
            "id": "490519b8-3724-4fe7-8367-9f859e7786b4",
            "extension": [
               {
                  "url": "https://fhir.nhs.uk/StructureDefinition/Extension-Genomics-Coverage",
                  "valueCoding": {
                     "system": "https://fhir.nhs.uk/CodeSystem/coverage-genomics",
                     "code": "NHS",
                     "display": "NHS"
                  }
               }
            ],
            "identifier": [
               {
                  "system": "https://www.ouh.nhs.uk/ehr",
                  "value": "LabOrder123456",
                  "assigner": {
                     "reference": "urn:uuid:43a91e0a-17ee-4525-9094-eb8189350960"
                  }
               }
            ],
            "basedOn": [
               {
                  "display": "UKCore-CarePlan-Genetic Examination-Example"
               }
            ],
            "status": "active",
            "intent": "order",
            "category": [
               {
                  "coding": [
                     {
                        "system": "http://snomed.info/sct",
                        "code": "405824009",
                        "display": "Genetic test"
                     }
                  ]
               }
            ],
            "priority": "routine",
            "code": {
               "coding": [
                  {
                     "system": "http://snomed.info/sct",
                     "code": "63491000000109",
                     "display": "Mitochondrial Diseases"
                  }
               ]
            },
            "subject": {
               "reference": "urn:uuid:9fd5cd87-3668-4946-a109-6e54d0a9df3b"
            },
            "encounter": {
               "display": "UKCore-Encounter-OncologyConsultation-Example"
            },
            "authoredOn": "2023-03-30T09:00:00Z",
            "requester": {
               "reference": "PractitionerRole/8d490f90-e24f-428d-8d9d-aecd9e699087"
            },
            "performer": [
               {
                  "reference": "urn:uuid:43a91e0a-17ee-4525-9094-eb8189350960"
               }
            ],
            "reasonCode": [
               {
                  "coding": [
                     {
                        "system": "http://snomed.info/sct",
                        "code": "363418001",
                        "display": "Spastiscity and Mobility"
                     }
                  ]
               }
            ]
         },
         "request": {
            "method": "POST",
            "url": "urn:uuid:490519b8-3724-4fe7-8367-9f859e7786b4"
         }
      },
      {
         "fullUrl": "urn:uuid:f165c5fb-9343-45f6-952d-db343e9b84bc",
         "resource": {
            "resourceType": "Condition",
            "id": "f165c5fb-9343-45f6-952d-db343e9b84bc",
            "clinicalStatus": {
               "coding": [
                  {
                     "system": "http://terminology.hl7.org/CodeSystem/condition-clinical",
                     "code": "active",
                     "display": "Active"
                  }
               ]
            },
            "verificationStatus": {
               "coding": [
                  {
                     "system": "http://terminology.hl7.org/CodeSystem/condition-ver-status",
                     "code": "confirmed",
                     "display": "Confirmed"
                  }
               ]
            },
            "code": {
               "coding": [
                  {
                     "system": "http://snomed.info/sct",
                     "code": "267770004",
                     "display": "Deafness"
                  }
               ]
            },
            "subject": {
               "reference": "urn:uuid:9fd5cd87-3668-4946-a109-6e54d0a9df3b"
            },
            "onsetDateTime": "1987-09-13T09:00:00Z",
            "recordedDate": "2022-03-13T09:00:00Z"
         },
         "request": {
            "method": "POST",
            "url": "urn:uuid:f165c5fb-9343-45f6-952d-db343e9b84bc"
         }
      },
      {
         "fullUrl": "urn:uuid:6b3b974e-3437-432d-b7d9-b443c96bd886",
         "resource": {
            "resourceType": "Specimen",
            "id": "6b3b974e-3437-432d-b7d9-b443c96bd886",
            "accessionIdentifier": {
               "system": "https://www.ouh.nhs.uk//path",
               "value": "Spec123456"
            },
            "status": "available",
            "type": {
               "coding": [
                  {
                     "system": "http://snomed.info/sct",
                     "code": "432058006",
                     "display": "Muscle"
                  }
               ]
            },
            "subject": {
               "reference": "urn:uuid:9fd5cd87-3668-4946-a109-6e54d0a9df3b"
            },
            "receivedTime": "2022-07-13T09:00:00Z",
            "request": [
               {
                  "reference": "urn:uuid:490519b8-3724-4fe7-8367-9f859e7786b4"
               }
            ],
            "collection": {
               "collectedDateTime": "2022-07-11T09:00:00Z"
            }
         },
         "request": {
            "method": "POST",
            "url": "urn:uuid:6b3b974e-3437-432d-b7d9-b443c96bd886"
         }
      },
      {
         "fullUrl": "urn:uuid:c4d5f915-f0bf-43f9-bcf2-1e1b0787549e",
         "resource": {
            "resourceType": "Observation",
            "id": "c4d5f915-f0bf-43f9-bcf2-1e1b0787549e",
            "status": "final",
            "code": {
               "coding": [
                  {
                     "system": "http://snomed.info/sct",
                     "code": "839021000000109",
                     "display": "Biopsy(sample taken alive)"
                  }
               ]
            },
            "subject": {
               "reference": "urn:uuid:9fd5cd87-3668-4946-a109-6e54d0a9df3b"
            },
            "specimen": {
               "reference": "urn:uuid:6b3b974e-3437-432d-b7d9-b443c96bd886"
            },
            "valueBoolean": true
         },
         "request": {
            "method": "POST",
            "url": "urn:uuid:c4d5f915-f0bf-43f9-bcf2-1e1b0787549e"
         }
      },
      {
         "fullUrl": "urn:uuid:8907156d-09c5-4c77-b026-04fde208b3a4",
         "resource": {
            "resourceType": "DiagnosticReport",
            "id": "8907156d-09c5-4c77-b026-04fde208b3a4",
            "basedOn": [
               {
                  "reference": "urn:uuid:490519b8-3724-4fe7-8367-9f859e7786b4"
               }
            ],
            "status": "final",
            "code": {
               "coding": [
                  {
                     "system": "http://snomed.info/sct",
                     "code": "721981007",
                     "display": "Diagnostic studies report"
                  }
               ]
            },
            "subject": {
               "reference": "urn:uuid:9fd5cd87-3668-4946-a109-6e54d0a9df3b"
            },
            "issued": "2023-01-11T09:00:00Z",
            "performer": [
               {
                  "reference": "urn:uuid:43a91e0a-17ee-4525-9094-eb8189350960"
               }
            ],
            "specimen": [
               {
                  "reference": "urn:uuid:d2a0760e-6e34-45b6-8cd0-5416a4bfa630"
               }
            ],
            "result": [
               {
                  "reference": "urn:uuid:831aec59-b79b-4cbc-b3b6-8130afbc68c0"
               },
               {
                  "reference": "urn:uuid:8df8cf06-7c68-4b29-9395-52176382bfc3"
               }
            ],
            "conclusion": "A proportion of modes..........................I don`t think this was.........................................",
            "presentedForm": [
               {
                  "contentType": "application/PDF",
                  "language": "en-GB",
                  "data": "",
                  "size": 281106,
                  "title": "Genomic Report for Mitochondrial Diseases",
                  "creation": "2023-01-17"
               }
            ]
         },
         "request": {
            "method": "POST",
            "url": "urn:uuid:8907156d-09c5-4c77-b026-04fde208b3a4"
         }
      },
      {
         "fullUrl": "urn:uuid:831aec59-b79b-4cbc-b3b6-8130afbc68c0",
         "resource": {
            "resourceType": "Observation",
            "id": "831aec59-b79b-4cbc-b3b6-8130afbc68c0",
            "status": "final",
            "code": {
               "coding": [
                  {
                     "system": "http://snomed.info/sct",
                     "code": "29525002",
                     "display": "Creatine kinase measurement"
                  }
               ]
            },
            "subject": {
               "reference": "urn:uuid:9fd5cd87-3668-4946-a109-6e54d0a9df3b"
            },
            "valueQuantity": {
               "value": 29,
               "system": "http://unitsofmeasure.org"
            }
         },
         "request": {
            "method": "POST",
            "url": "urn:uuid:831aec59-b79b-4cbc-b3b6-8130afbc68c0"
         }
      },
      {
         "fullUrl": "urn:uuid:8df8cf06-7c68-4b29-9395-52176382bfc3",
         "resource": {
            "resourceType": "Observation",
            "id": "8df8cf06-7c68-4b29-9395-52176382bfc3",
            "status": "final",
            "code": {
               "coding": [
                  {
                     "system": "https://loinc.org/",
                     "code": "2520-5",
                     "display": "Lactate [Moles/volume] in Cerebral spinal fluid"
                  }
               ]
            },
            "subject": {
               "reference": "urn:uuid:9fd5cd87-3668-4946-a109-6e54d0a9df3b"
            },
            "valueQuantity": {
               "value": 1.3,
               "system": "http://unitsofmeasure.org"
            }
         },
         "request": {
            "method": "POST",
            "url": "urn:uuid:8df8cf06-7c68-4b29-9395-52176382bfc3"
         }
      }
   ]
}