{
	"resourceType": "Bundle",
	"id": "UKCore-Bundle-MichaelJonesRequest-Example",
	"type": "transaction",
	"timestamp": "2022-07-11T09:00:00Z",
	"entry": [
		{
			"fullUrl": "urn:uuid:f799ec75-8648-4b91-b0a9-b73b46db2c00",
			"resource": {
				"resourceType": "Practitioner",
				"id": "f799ec75-8648-4b91-b0a9-b73b46db2c00",
				"text": {
				  "status": "generated",
				  "div": "<div xmlns=\"http://www.w3.org/1999/xhtml\"><p><b>Generated Narrative</b></p><div style=\"display: inline-block; background-color: #d9e0e7; padding: 6px; margin: 4px; border: 1px solid #8da1b4; border-radius: 5px; line-height: 60%\"><p style=\"margin-bottom: 0px\">Resource &quot; UKCore-Practitioner-MaryLane-Example&quot; </p></div></div>"
				},
				"identifier": [
					{
						"use": "official",
						"system": "https://fhir.nhs.uk/Id/sds-user-id",
						"value": "999999"
					}
				],
				"active": "true",
				"name": [
					{
						"use": "official",
						"text": "Mary Lane",
						"family": "Lane",
						"given": [
							"Mary"
						]
					}
				],
				"telecom": [
					{
						"system": "email",
						"value": "mary.lane@nhs.net"
					}
				],
				"address": [
					{
						"type": "both",
						"line": [
							"ST MARYS HOSPITAL",
							"MANCHESTER ROYAL INFIRMARY",
							"OXFORD ROAD"
						],
						"city": "Manchester",
						"postalCode": "M13 9WL"
					}
				],
				"gender": "female",
				"birthDate": "1970-01-01",
				"communication": [
					{
						"coding": [
							{
								"system": "urn:ietf:bcp:47",
								"code": "en",
								"display": "English"
							}
						]
					}
				]
			},
			"request": {
				"method": "POST",
				"url": "Practitioner",
				"ifNoneExist": "identifier=https://fhir.nhs.uk/Id/sds-user-id|999999"
			}
		},
		{
			"fullUrl": "urn:uuid:2b94aed1-02bd-4f68-b5f4-df5aaceecdb1",
			"resource": {
				"resourceType": "Practitioner",
				"id": "2b94aed1-02bd-4f68-b5f4-df5aaceecdb1",
				"text": {
				  "status": "generated",
				  "div": "<div xmlns=\"http://www.w3.org/1999/xhtml\"><p><b>Generated Narrative</b></p><div style=\"display: inline-block; background-color: #d9e0e7; padding: 6px; margin: 4px; border: 1px solid #8da1b4; border-radius: 5px; line-height: 60%\"><p style=\"margin-bottom: 0px\">Resource &quot; UKCore-Practitioner-DrDMello-Example&quot; </p></div></div>"
				},
				"identifier": [
					{
						"use": "official",
						"system": "https://fhir.hl7.org.uk/Id/gmc-number",
						"value": "5173256"
					}
				],
				"active": "true",
				"name": [
					{
						"use": "official",
						"text": "Veeda Flavia D'Mello",
						"family": "D'Mello",
						"given": [
							"Veeda",
							"Flavia"
						]
					}
				],
				"telecom": [
					{
						"system": "email",
						"value": "veeda.dmello@nhs.net"
					}
				],
				"address": [
					{
						"type": "both",
						"line": [
							"41 WESTMINSTER ROAD"
						],
						"city": "COVENTRY",
						"postalCode": "CV1 3GB"
					}
				],
				"gender": "female",
				"birthDate": "1970-01-01",
				"qualification": [
					{
						"code": {
							"coding": [
								{
									"system": "http://terminology.hl7.org/CodeSystem/v2-0360|2.7",
									"code": "MD",
									"display": "Doctor of Medicine"
								}
							]
						}
					}
				],
				"communication": [
					{
						"coding": [
							{
								"system": "urn:ietf:bcp:47",
								"code": "en",
								"display": "English"
							}
						]
					}
				]
			},
			"request": {
				"method": "POST",
				"url": "Practitioner",
				"ifNoneExist": "identifier=https://fhir.hl7.org.uk/Id/gmc-number|5173256"
			}
		},
		{
			"fullUrl": "urn:uuid:6e1a8ea3-3a59-40aa-b943-5c896a30e43a",
			"resource": {
				"resourceType": "Practitioner",
				"id": "6e1a8ea3-3a59-40aa-b943-5c896a30e43a",
				"text": {
				  "status": "generated",
				  "div": "<div xmlns=\"http://www.w3.org/1999/xhtml\"><p><b>Generated Narrative</b></p><div style=\"display: inline-block; background-color: #d9e0e7; padding: 6px; margin: 4px; border: 1px solid #8da1b4; border-radius: 5px; line-height: 60%\"><p style=\"margin-bottom: 0px\">Resource &quot; UKCore-Practitioner-DrLucyHale-Example&quot; </p></div></div>"
				},
				"identifier": [
					{
						"use": "official",
						"system": "https://fhir.hl7.org.uk/Id/gmc-number",
						"value": "9999999"
					}
				],
				"active": "true",
				"name": [
					{
						"use": "official",
						"text": "Lucy Hale",
						"family": "Hale",
						"given": [
							"Lucy"
						]
					}
				],
				"telecom": [
					{
						"system": "email",
						"value": "lucy.hale@nhs.net"
					}
				],
				"address": [
					{
						"type": "both",
						"line": [
							"550 WILMSLOW ROAD",
							"WITHINGTON"
						],
						"city": "Manchester",
						"postalCode": "M20 4BX"
					}
				],
				"gender": "female",
				"birthDate": "1970-01-01",
				"qualification": [
					{
						"code": {
							"coding": [
								{
									"system": "http://terminology.hl7.org/CodeSystem/v2-0360|2.7",
									"code": "MD",
									"display": "Doctor of Medicine"
								}
							]
						}
					}
				],
				"communication": [
					{
						"coding": [
							{
								"system": "urn:ietf:bcp:47",
								"code": "en",
								"display": "English"
							}
						]
					}
				]
			},
			"request": {
				"method": "POST",
				"url": "Practitioner",
				"ifNoneExist": "identifier=https://fhir.hl7.org.uk/Id/gmc-number|9999999"
			}
		},
		{
			"fullUrl": "urn:uuid:748e3f37-e05e-4484-8425-81e7b7572812",
			"resource": {
				"resourceType": "Organization",
				"id": "748e3f37-e05e-4484-8425-81e7b7572812",
				"text": {
					"status": "generated",
					"div": "<div xmlns=\"http://www.w3.org/1999/xhtml\"><p><b>Generated Narrative</b></p><div style=\"display: inline-block; background-color: #d9e0e7; padding: 6px; margin: 4px; border: 1px solid #8da1b4; border-radius: 5px; line-height: 60%\"><p style=\"margin-bottom: 0px\">Resource &quot; UKCore-Organization-DPX-Example&quot; </p></div></div>"
				},
				"identifier": [
					{
						"system": "https://fhir.nhs.uk/Id/ods-organization-code",
						"value": "DPX"
					}
				],
				"active": "true",
				"type": { 
					"coding": [
						{ 
							"system": "http://terminology.hl7.org/CodeSystem/organization-type", 
							"code": "prov", 
							"display": "Healthcare Provider"
						}
					]
				},
				"name": "Independent Sector Healthcare Provider - JUBILEE HEALTHCARE",
				"address": [
					{
						"type": "both",
						"line": [
							"41 WESTMINSTER ROAD"
						],
						"city": "COVENTRY",
						"postalCode": "CV1 3GB"
					}
				],
				"partOf": {
					"identifier": {
						"system": "https://fhir.nhs.uk/Id/ods-organization-code",
						"value": "QWU"
					}
				},
				"contact": [
					{ 
						"purpose": {
							"coding": [
								{ 
									"system": "http://terminology.hl7.org/CodeSystem/contactentity-type", 
									"code": "ADMIN", 
									"display": "Administrative"
								}
							]
						},
						"telecom": [
							{
								"system": "phone",
								"value": "02476223565"
							}
						]
					}
				],
				"endpoint": {
					"display": "UKCore-Endpoint-DPX-Example"
				}
			},
			"request": {
				"method": "POST",
				"url": "Organization",
				"ifNoneExist": "identifier=https://fhir.nhs.uk/Id/ods-organization-code|DPX"
			}
		},
		{
			"fullUrl": "urn:uuid:309aba59-ce1a-4ee6-bc82-ab44fa1bf904",
			"resource": {
				"resourceType": "Organization",
				"id": "309aba59-ce1a-4ee6-bc82-ab44fa1bf904",
				"text": {
					"status": "generated",
					"div": "<div xmlns=\"http://www.w3.org/1999/xhtml\"><p><b>Generated Narrative</b></p><div style=\"display: inline-block; background-color: #d9e0e7; padding: 6px; margin: 4px; border: 1px solid #8da1b4; border-radius: 5px; line-height: 60%\"><p style=\"margin-bottom: 0px\">Resource &quot; UKCore-Organization-699X0-Example&quot; </p></div></div>"
				},
				"identifier": [
					{
						"system": "https://fhir.nhs.uk/Id/ods-organization-code",
						"value": "699X0"
					}
				],
				"active": "true",
				"type": { 
					"coding": [
						{ 
							"system": "http://terminology.hl7.org/CodeSystem/organization-type", 
							"code": "GLH", 
							"display": "Genomic Laboratory Hub"
						}
					]
				},
				"name": "Pathology Lab - NORTH WEST GLH LED BY MANCHESTER UNIVERSITY NHS FOUNDATION TRUST",
				"address": [
					{
						"type": "both",
						"line": [
							"ST MARYS HOSPITAL",
							"MANCHESTER ROYAL INFIRMARY",
							"OXFORD ROAD"
						],
						"city": "Manchester",
						"postalCode": "M13 9WL"
					}
				],
				"partOf": {
					"identifier": {
						"system": "https://fhir.nhs.uk/Id/ods-organization-code",
						"value": "R0A"
					}
				},
				"contact": [
					{ 
						"purpose": {
							"coding": [
								{ 
									"system": "http://terminology.hl7.org/CodeSystem/contactentity-type", 
									"code": "ADMIN", 
									"display": "Administrative"
								}
							]
						},
						"telecom": [
							{
								"system": "phone",
								"value": "01612766506"
							},
							{
								"system": "email",
								"value": "mft.genomics@nhs.net"
							}
						]
					}
				],
				"endpoint": {
					"display": "UKCore-Endpoint-NorthWestGLH-Example"
				}
			},
			"request": {
				"method": "POST",
				"url": "Organization",
				"ifNoneExist": "identifier=https://fhir.nhs.uk/Id/ods-organization-code|699X0"
			}
		},
		{
			"fullUrl": "urn:uuid:9af435fd-4bbf-4cc6-81c6-9f2800c2c513",
			"resource": {
				"resourceType": "Organization",
				"id": "9af435fd-4bbf-4cc6-81c6-9f2800c2c513",
				"text": {
					"status": "generated",
					"div": "<div xmlns=\"http://www.w3.org/1999/xhtml\"><p><b>Generated Narrative</b></p><div style=\"display: inline-block; background-color: #d9e0e7; padding: 6px; margin: 4px; border: 1px solid #8da1b4; border-radius: 5px; line-height: 60%\"><p style=\"margin-bottom: 0px\">Resource &quot; UKCore-Organization-RBV-Example&quot; </p></div></div>"
				},
				"identifier": [
					{
						"system": "https://fhir.nhs.uk/Id/ods-organization-code",
						"value": "RBV"
					}
				],
				"active": "true",
				"type": { 
					"coding": [
						{ 
							"system": "http://terminology.hl7.org/CodeSystem/organization-type", 
							"code": "prov", 
							"display": "Healthcare Provider"
						}
					]
				},
				"name": "NHS Trust - THE CHRISTIE NHS FOUNDATION TRUST",
				"address": [
					{
						"type": "both",
						"line": [
							"550 WILMSLOW ROAD",
							"WITHINGTON"
						],
						"city": "Manchester",
						"postalCode": "M20 4BX"
					}
				],
				"partOf": {
					"identifier": {
						"system": "https://fhir.nhs.uk/Id/ods-organization-code",
						"value": "QOP"
					}
				},
				"contact": [
					{ 
						"purpose": {
							"coding": [
								{ 
									"system": "http://terminology.hl7.org/CodeSystem/contactentity-type", 
									"code": "ADMIN", 
									"display": "Administrative"
								}
							]
						},
						"telecom": [
							{
								"system": "phone",
								"value": "01614463000"
							}
						]
					}
				],
				"endpoint": {
					"display": "UKCore-Endpoint-RBV-Example"
				}
			},
			"request": {
				"method": "POST",
				"url": "Organization",
				"ifNoneExist": "identifier=https://fhir.nhs.uk/Id/ods-organization-code|RBV"
			}
		},
		{
			"fullUrl": "urn:uuid:41e4b604-37f3-4799-a6b3-ab5b104f3c97",
			"resource": {
				"resourceType": "Patient",
				"id": "41e4b604-37f3-4799-a6b3-ab5b104f3c97",
				"text": {
				  "status": "generated",
				  "div": "<div xmlns=\"http://www.w3.org/1999/xhtml\"><p><b>Generated Narrative</b></p><div style=\"display: inline-block; background-color: #d9e0e7; padding: 6px; margin: 4px; border: 1px solid #8da1b4; border-radius: 5px; line-height: 60%\"><p style=\"margin-bottom: 0px\">Resource &quot; UKCore-Patient-MichealJones-Example&quot; </p></div></div>"
				},
				"extension": [
					{
						"url": "https://fhir.hl7.org.uk/StructureDefinition/Extension-UKCore-EthnicCategory",
						"valueCodeableConcept": {
							"coding": [
								{
									"system": "https://fhir.hl7.org.uk/CodeSystem/UKCore-EthnicCategoryEngland",
									"code": "A",
									"display": "White - British"
								}
							]
						}
					}
				],
				"identifier": [
					{
						"extension": [
							{
								"url": "https://fhir.hl7.org.uk/StructureDefinition/Extension-UKCore-NHSNumberVerificationStatus",
								"valueCodeableConcept": {
									"coding": [
										{
											"system": "https://fhir.hl7.org.uk/CodeSystem/UKCore-NHSNumberVerificationStatus",
											"code": "number-present-and-verified",
											"display": "Number present and verified"
										}
									]
								}
							}
						],
						"use": "official",
						"system": "https://fhir.nhs.uk/Id/nhs-number",
						"value": "9999999999"
					}
				],
				"active": "true",
				"name": [
					{
						"use": "official",
						"text": "Michael Jones",
						"family": "Jones",
						"given": [
							"Michael"
						]
					}
				],
				"telecom": [
					{
						"system": "phone",
						"value": "07920754621"
					}
				],
				"gender": "male",
				"birthDate": "1989-12-08",
				"deceasedBoolean": "false",
				"address": [
					{
						"type": "both",
						"line": [
							"48 Astoria Drive"
						],
						"city": "Coventry",
						"postalCode": "CV4 9ZY"
					}
				],
				"maritalStatus": {
				  "coding": [
					{
					  "system": "https://fhir.hl7.org.uk/CodeSystem/UKCore-PersonMaritalStatus",
					  "code": "married-or-civil-partner",
					  "display": "Married/Civil Partner"
					}
				  ]
				},
				"multipleBirthBoolean": "false",
				"contact": [
					{
						"relationship": [
							{
								"coding": [
									{
										"system": "http://terminology.hl7.org/CodeSystem/v3-RoleCode",
										"code": "SPS",
										"display": "spouse"
									}
								]
							}
						],
						"name": [
							{
								"use": "official",
								"text": "Jane Jones",
								"family": "Jones",
								"given": [
									"Jane"
								]
							}
						],
						"telecom": [
							{
								"system": "phone",
								"value": "079468308869"
							}
						],
						"address": [
							{
								"type": "both",
								"line": [
									"48 Astoria Drive"
								],
								"city": "Coventry",
								"postalCode": "CV4 9ZY"
							}
						],
						"gender": "female"
					}
				],
				"communication": [
					{
						"language": {
							"coding": [
								{
									"system": "https://fhir.hl7.org.uk/CodeSystem/UKCore-HumanLanguage",
									"code": "en",
									"display": "English"
								}
							]
						},
						"preferred": "true"
					}
				],
				"generalPractitioner": [
					{
						"reference": "urn:uuid:2b94aed1-02bd-4f68-b5f4-df5aaceecdb1"
					}
				],
				"managingOrganization": {
					"reference": "urn:uuid:748e3f37-e05e-4484-8425-81e7b7572812"
				}
			},
			"request": {
				"method": "POST",
				"url": "Patient",
				"ifNoneExist": "identifier=https://fhir.nhs.uk/Id/nhs-number|9999999999"
			}
		},
		{
			"fullUrl": "urn:uuid:66c519dd-423f-4238-89c8-91c5be52f330",
			"resource": {
				"resourceType": "ServiceRequest",
				"id": "66c519dd-423f-4238-89c8-91c5be52f330",
				"text": {
					"status": "generated",
					"div": "<div xmlns=\"http://www.w3.org/1999/xhtml\"><p><b>Generated Narrative</b></p><div style=\"display: inline-block; background-color: #d9e0e7; padding: 6px; margin: 4px; border: 1px solid #8da1b4; border-radius: 5px; line-height: 60%\"><p style=\"margin-bottom: 0px\">Resource &quot; UKCore-ServiceRequest-MichaelJonesDYPDRequest-Example&quot; </p></div></div>"
				},
				"identifier": [
					{
						"system": "https://www.christie.nhs.uk/ehr",
						"value": "LabOrder123456",
						"assigner":  {
							"reference": "Organization?identifier=https://fhir.nhs.uk/Id/ods-organization-code|RBV"
						}
					}
				],
				"instantiatesUri": [
					"https://www.england.nhs.uk/wp-content/uploads/2020/11/1869-dpyd-policy-statement.pdf"
				],
				"basedOn": [
					{
						"display": "UKCore-CarePlan-PancreaticCancerPlan-Example"
					}
				],
				"status": "active",
				"intent": "order",
				"category": [
					{ 
						"coding": [
							{ 
								"system": "http://snomed.info/sct", 
								"code": "108252007", 
								"display": "Laboratory procedure"
							}
						]
					}
				],
				"priority": "routine",
				"doNotPerform": "false",
				"code": { 
					"coding": [
						{ 
							"system": "https://www.england.nhs.uk/publication/national-genomic-test-directories", 
							"code": "M219.3", 
							"display": "DPYD hotspot"
						}
					]
				},
				"subject":  {
					"reference": "Patient?identifier=https://fhir.nhs.uk/Id/nhs-number|9999999999"
				},
				"encounter":  {
					"display": "UKCore-Encounter-OncologyConsultation-Example"
				},
				"authoredOn": "2022-07-11T09:00:00Z",
				"requester": {
					"reference": "Practitioner?identifier=https://fhir.hl7.org.uk/Id/gmc-number|9999999"
				},
				"performer": [
					{
						"reference": "Organization?identifier=https://fhir.nhs.uk/Id/ods-organization-code|699X0"
					}
				],
				"reasonCode": [
					{ 
						"coding": [
							{ 
								"system": "http://snomed.info/sct", 
								"code": "363418001", 
								"display": "Malignant tumor of pancreas (disorder)"
							}
						]
					}
				]
			},
			"request": {
				"method": "POST",
				"url": "ServiceRequest"
			}
		},
		{
			"fullUrl": "urn:uuid:840d075e-0480-4134-ae51-27f572731cc8",
			"resource": {
				"resourceType": "Specimen",
				"id": "840d075e-0480-4134-ae51-27f572731cc8",
				"text": {
					"status": "generated",
					"div": "<div xmlns=\"http://www.w3.org/1999/xhtml\"><p><b>Generated Narrative</b></p><div style=\"display: inline-block; background-color: #d9e0e7; padding: 6px; margin: 4px; border: 1px solid #8da1b4; border-radius: 5px; line-height: 60%\"><p style=\"margin-bottom: 0px\">Resource &quot; UKCore-Specimen-MichaelJonesBlood-Example&quot; </p></div></div>"
				},
				"identifier": [
					{
						"system": "https://www.christie.nhs.uk/path",
						"value": "Spec123456"
					}
				],
				"status": "available",
				"type": { 
					"coding": [
						{ 
							"system": "http://snomed.info/sct", 
							"code": "87612001", 
							"display": "Blood (substance)"
						}
					]
				},
				"subject":  {
					"reference": "Patient?identifier=https://fhir.nhs.uk/Id/nhs-number|9999999999"
				},
				"receivedTime": "2022-07-13T09:00:00Z",
				"request": [
					{
						"reference": "urn:uuid:66c519dd-423f-4238-89c8-91c5be52f330"
					}
				],
				"collection": {
					"collector": {
						"reference": "Practitioner?identifier=https://fhir.nhs.uk/Id/sds-user-id|999999"
					},
					"collectedDateTime": "2022-07-11T09:00:00Z",
					"quantity": {
						"system": "http://unitsofmeasure.org", 
						"code": "mL", 
						"value": "2.5"
					},
					"method": {
						"coding": [
							{
								"system": "http://snomed.info/sct", 
								"code": "129300006", 
								"display": "Puncture - action"
							}
						]
					},
					"bodySite": {
						"coding": [
							{
								"system": "http://snomed.info/sct", 
								"code": "14975008", 
								"display": "Forearm structure (body structure)"
							}
						]
					}
				},
				"container": [
					{
						"identifier": [
							{
								"use": "official",
								"type": {
									"coding": [
										{
											"system": "http://terminology.hl7.org/CodeSystem/v2-0203", 
											"code": "ACSN", 
											"display": "Accession ID"
										}
									]
								},
								"system": "https://www.christie.nhs.uk/path", 
								"value": "ASCN123456",
								"assigner": {
									"reference": "Organization?identifier=https://fhir.nhs.uk/Id/ods-organization-code|RBV"
								}
							}
						],
						"type": {
							"coding": [
								{
									"system": "http://snomed.info/sct", 
									"code": "706067003", 
									"display": "Blood collection/transfer device (physical object)"
								}
							]
						},
						"specimenQuantity": {
							"system": "http://unitsofmeasure.org", 
							"code": "mL", 
							"value": "2.5"
						}
					}
				],
				"condition": {
					"coding": [
						{
							"system": "http://terminology.hl7.org/CodeSystem/v2-0493", 
							"code": "SNR", 
							"display": "Sample not received"
						}
					]
				}
			},
			"request": {
				"method": "POST",
				"url": "Specimen"
			}
		},
		{
			"fullUrl": "urn:uuid:87486509-5512-44e9-aa95-6d23ae0c8687",
			"resource": {
				"resourceType": "Consent",
				"id": "87486509-5512-44e9-aa95-6d23ae0c8687",
				"text": {
					"status": "generated",
					"div": "<div xmlns=\"http://www.w3.org/1999/xhtml\"><p><b>Generated Narrative</b></p><div style=\"display: inline-block; background-color: #d9e0e7; padding: 6px; margin: 4px; border: 1px solid #8da1b4; border-radius: 5px; line-height: 60%\"><p style=\"margin-bottom: 0px\">Resource &quot; UKCore-Consent-MichaelJonesConsent-Example&quot; </p></div></div>"
				},
				"identifier": [
					{
						"system": "https://www.christie.nhs.uk/ehr",
						"value": "Consent123456",
						"assigner":  {
							"reference": "Organization?identifier=https://fhir.nhs.uk/Id/ods-organization-code|RBV"
						}
					}
				],
				"status": "active",
				"scope": { 
					"coding": [
						{ 
							"system": "http://terminology.hl7.org/CodeSystem/consentscope", 
							"code": "research", 
							"display": "Research"
						}
					]
				},
				"category": [
					{ 
						"coding": [
							{ 
								"system": "http://terminology.hl7.org/CodeSystem/consentcategorycodes", 
								"code": "rsdid", 
								"display": "De-identified Information Access"
							}
						]
					}
				],
				"patient":  {
					"reference": "Patient?identifier=https://fhir.nhs.uk/Id/nhs-number|9999999999"
				},
				"dateTime": "2022-07-11T09:00:00Z",
				"performer": [
					{
						"reference": "Patient?identifier=https://fhir.nhs.uk/Id/nhs-number|9999999999"
					}
				],
				"organization": [
					{
						"reference": "Organization?identifier=https://fhir.nhs.uk/Id/ods-organization-code|RBV"
					}
				],
				"sourceAttachment": {
					"contentType": "application/pdf",
					"language": "en-GB",
					"url": "https://files.genomicsengland.co.uk/forms/Participant-consent-form-for-patients-with-cancer-or-suspected-cancer-C1.pdf",
					"size": "539588",
					"title" : "Participant-consent-form-for-patients-with-cancer-or-suspected-cancer-C1_MJ",
					"creation": "2022-07-11T09:00:00Z"
				},
				"policy": [
					{
						"uri": "https://s3.eu-west-2.amazonaws.com/ge-production-s3/forms/Participant-consent-form-for-patients-with-cancer-or-suspected-cancer-C1.pdf"
					}
				],
				"verification": [
					{
						"verified": "true",
						"verifiedWith": {
							"reference": "Patient?identifier=https://fhir.nhs.uk/Id/nhs-number|9999999999"
						},
						"verificationDate": "2022-07-11T09:00:00Z"
					}
				],
				"provision": {
					"type": "permit",
					"period": {
						"start": "2022-07-11T09:00:00Z",
						"end": "2025-07-11T08:59:59Z"
					},
					"actor": [
						{
							"role": {
								"coding": [
									{ 
										"system": "http://terminology.hl7.org/CodeSystem/extra-security-role-type", 
										"code": "dataprocessor", 
										"display": "data processor"
									}
								]
							},
							"reference": {
								"reference": "Organization?identifier=https://fhir.nhs.uk/Id/ods-organization-code|699X0"
							}
						}
					],
					"action": [
						{
							"coding": [
								{ 
									"system": "http://terminology.hl7.org/CodeSystem/consentaction", 
									"code": "access", 
									"display": "Access"
								}
							]
						},
						{
							"coding": [
								{ 
									"system": "http://terminology.hl7.org/CodeSystem/consentaction", 
									"code": "use", 
									"display": "Use"
								}
							]
						}
					],
					"class": [
						{
							"system": "http://hl7.org/fhir/resource-types", 
							"code": "DiagnosticReport", 
							"display": "DiagnosticReport"
						},
						{
							"system": "http://hl7.org/fhir/resource-types", 
							"code": "ClinicalImpression", 
							"display": "ClinicalImpression"
						},
						{
							"system": "http://hl7.org/fhir/resource-types", 
							"code": "Condition", 
							"display": "Condition"	
						},
						{
							"system": "http://hl7.org/fhir/resource-types", 
							"code": "MolecularSequence", 
							"display": "MolecularSequence"	
						},
						{
							"system": "http://hl7.org/fhir/resource-types", 
							"code": "Observation", 
							"display": "Observation"
						}
					],
					"code": [
						{
							"coding": [
								{ 
									"system": "https://www.england.nhs.uk/publication/national-genomic-test-directories", 
									"code": "M219.3", 
									"display": "DPYD hotspot"
								}
							]
						}
					]
				}
			},
			"request": {
				"method": "POST",
				"url": "Consent"
			}
		}
	]
}